# Optical absorption spectrum of Chlorophyll a in diethyl ether
#
# Data from PhotochemCAD 2.1a has been munged on  2 June 2017 by Scott Prahl to make
# the information available to non-Windows users.  Although I have tried to be as careful
# as possible, I may have introduced some error; the cautious user is advised to compare
# these results with the original sources at www.photochemcad.com:
#
# H. Du, R. A. Fuh, J. Li, A. Corkan, J. S. Lindsey, "PhotochemCAD: A computer-aided design
#     and research tool in photochemistry," Photochem. Photobiol., 68, 141-142, 1998. 
# J. M. Dixon, M. Taniguchi and J. S. Lindsey "PhotochemCAD 2. A refined program with accompanying 
#     spectral databases for photochemical calculations", Photochem. Photobiol., 81, 212-213, 2005.
#
# The spectral absorption measurements were made by J. Li on 12-11-1997 using a Cary 3.  
# The absorption values were collected using a spectral bandwidth of 1.0 nm, a signal averaging time of 0.133 sec, a data interval of 0.25 nm, and a scan rate of 112.5 nm/min.
#
# These measurements were scaled to make the molar extinction coefficient match
# the value of 111700 cm-1/M at 427.8 nm.  These values were 
# then interpolated to report extinction coefficients at regular 1nm intervals
#
# The reported molar extinction coefficient is from
# Strain, H. H., M. R. Thomas and J. J. Katz (1963) Spectral absorption properties of ordinary and fully deuteriated chlorophylls a and b.  Biochim. Biophys. Acta 75, 306-311.
#
##Wavelength (nm)	Molar Extinction (cm-1/M) 
219.81	18462
220	18990
220.18	19418
220.37	20009
220.56	20429
220.75	20632
220.93	20830
221.12	21173
221.31	21411
221.5	21452
221.68	21774
221.87	22005
222.06	22113
222.25	22143
222.43	22369
222.62	22476
222.81	22601
223	22746
223.18	22848
223.37	23008
223.56	22936
223.75	22987
223.93	23174
224.12	23231
224.31	23244
224.5	23349
224.68	23325
224.87	23293
225.06	23396
225.25	23507
225.43	23467
225.62	23677
225.81	23647
226	23487
226.18	23711
226.37	23670
226.56	23607
226.75	23755
226.93	23719
227.12	23723
227.31	23706
227.5	23789
227.68	23915
227.87	23931
228.06	23924
228.25	23891
228.43	23897
228.62	23808
228.81	23943
229	23960
229.18	24183
229.37	24035
229.56	24005
229.75	24051
229.93	24182
230.12	23976
230.31	24169
230.5	24160
230.68	24129
230.87	24034
231.06	24076
231.25	24212
231.43	24249
231.62	24142
231.81	24214
232	24166
232.18	24131
232.37	23978
232.56	24041
232.75	24102
232.93	24050
233.12	24087
233.31	24193
233.5	24131
233.68	24225
233.87	24321
234.06	24238
234.25	24189
234.43	24173
234.62	24200
234.81	24233
235	24157
235.18	24150
235.37	24133
235.56	24093
235.75	24190
235.93	24165
236.12	24207
236.31	24095
236.5	24082
236.68	24149
236.87	23936
237.06	23991
237.25	23964
237.43	23884
237.62	23925
237.81	24052
238	23934
238.18	23853
238.37	23855
238.56	23842
238.75	23858
238.93	23853
239.12	23810
239.31	23759
239.5	23794
239.68	23634
239.87	23751
240.06	23712
240.25	23786
240.43	23707
240.62	23621
240.81	23559
241	23628
241.18	23574
241.37	23508
241.56	23448
241.75	23400
241.93	23513
242.12	23530
242.31	23485
242.5	23464
242.68	23434
242.87	23500
243.06	23540
243.25	23467
243.43	23429
243.62	23491
243.81	23404
244	23265
244.18	23477
244.37	23340
244.56	23329
244.75	23419
244.93	23275
245.12	23283
245.31	23253
245.5	23225
245.68	23180
245.87	23186
246.06	23162
246.25	23030
246.43	22982
246.62	22981
246.81	22953
247	22910
247.18	22823
247.37	22834
247.56	22794
247.75	22662
247.93	22613
248.12	22524
248.31	22540
248.5	22404
248.68	22448
248.87	22362
249.06	22385
249.25	22256
249.43	22242
249.62	22194
249.81	22096
250	22062
250.18	22038
250.37	21940
250.56	21870
250.75	21800
250.93	21673
251.12	21784
251.31	21590
251.5	21593
251.68	21525
251.87	21428
252.06	21348
252.25	21268
252.43	21185
252.62	21119
252.81	21029
253	20863
253.18	20811
253.37	20762
253.56	20716
253.75	20635
253.93	20653
254.12	20678
254.31	20569
254.5	20532
254.68	20423
254.87	20339
255.06	20273
255.25	20310
255.43	20155
255.62	20126
255.81	20038
256	20020
256.18	19896
256.37	19970
256.56	19987
256.75	19781
256.93	19865
257.12	19717
257.31	19674
257.5	19496
257.68	19466
257.87	19355
258.06	19283
258.25	19158
258.43	19048
258.62	18981
258.81	18846
259	18800
259.18	18677
259.37	18494
259.56	18430
259.75	18235
259.93	18147
260.12	17982
260.31	17896
260.5	17847
260.68	17723
260.87	17560
261.06	17452
261.25	17397
261.43	17194
261.62	16937
261.81	16820
262	16686
262.18	16584
262.37	16493
262.56	16486
262.75	16395
262.93	16431
263.12	16406
263.31	16434
263.5	16362
263.68	16327
263.87	16167
264.06	16090
264.25	16037
264.43	15832
264.62	15830
264.81	15737
265	15664
265.18	15635
265.37	15569
265.56	15556
265.75	15475
265.93	15494
266.12	15445
266.31	15355
266.5	15330
266.68	15287
266.87	15243
267.06	15227
267.25	15193
267.43	15111
267.62	14920
267.81	14735
268	14507
268.18	14467
268.37	14320
268.56	14189
268.75	14189
268.93	14180
269.12	14247
269.31	14200
269.5	14226
269.68	14352
269.87	14342
270.06	14406
270.25	14457
270.43	14519
270.62	14567
270.81	14658
271	14729
271.18	14751
271.37	14801
271.56	14768
271.75	14706
271.93	14782
272.12	14829
272.31	14815
272.5	14887
272.68	14952
272.87	14858
273.06	14946
273.25	15045
273.43	15014
273.62	15084
273.81	15049
274	15035
274.18	15130
274.37	15188
274.56	15233
274.75	15276
274.93	15330
275.12	15335
275.31	15404
275.5	15372
275.68	15311
275.87	15564
276.06	15571
276.25	15732
276.43	15687
276.62	15824
276.81	15751
277	15778
277.18	15863
277.37	15737
277.56	15836
277.75	15838
277.93	15895
278.12	16010
278.31	16080
278.5	16040
278.68	16060
278.87	16058
279.06	16138
279.25	16142
279.43	16092
279.62	16087
279.81	16185
280	16105
280.18	16084
280.37	16229
280.56	16216
280.75	16256
280.93	16257
281.12	16404
281.31	16221
281.5	16179
281.68	16238
281.87	16278
282.06	16249
282.25	16348
282.43	16332
282.62	16366
282.81	16384
283	16350
283.18	16348
283.37	16396
283.56	16458
283.75	16333
283.93	16340
284.12	16456
284.31	16361
284.5	16502
284.68	16452
284.87	16596
285.06	16600
285.25	16628
285.43	16560
285.62	16626
285.81	16605
286	16666
286.18	16761
286.37	16791
286.56	16818
286.75	16892
286.93	16875
287.12	16957
287.31	16948
287.5	17011
287.68	16949
287.87	16910
288.06	17089
288.25	17094
288.43	17182
288.62	17288
288.81	17353
289	17313
289.18	17248
289.37	17425
289.56	17413
289.75	17383
289.93	17459
290.12	17588
290.31	17524
290.5	17541
290.68	17675
290.87	17660
291.06	17712
291.25	17689
291.43	17664
291.62	17708
291.81	17761
292	17821
292.18	17784
292.37	17873
292.56	17870
292.75	17880
292.93	17934
293.12	17936
293.31	17935
293.5	18036
293.68	18007
293.87	17990
294.06	18054
294.25	18018
294.43	18069
294.62	18134
294.81	18141
295	18161
295.18	18087
295.37	18079
295.56	18013
295.75	18147
295.93	18110
296.12	18087
296.31	18078
296.5	18177
296.68	18177
296.87	18168
297.06	18209
297.25	18181
297.43	18137
297.62	18179
297.81	18270
298	18313
298.18	18239
298.37	18188
298.56	18211
298.75	18291
298.93	18282
299.12	18189
299.31	18282
299.5	18422
299.68	18289
299.87	18357
300.06	18361
300.25	18399
300.43	18330
300.62	18389
300.81	18488
301	18479
301.18	18535
301.37	18611
301.56	18609
301.75	18601
301.93	18623
302.12	18707
302.31	18618
302.5	18690
302.68	18817
302.87	18788
303.06	18907
303.25	18908
303.43	19018
303.62	19027
303.81	18987
304	19084
304.18	19027
304.37	19202
304.56	19119
304.75	19265
304.93	19343
305.12	19325
305.31	19304
305.5	19459
305.68	19575
305.87	19495
306.06	19489
306.25	19614
306.43	19654
306.62	19685
306.81	19801
307	19856
307.18	19833
307.37	19943
307.56	19905
307.75	19912
307.93	20052
308.12	20000
308.31	20181
308.5	20140
308.68	20210
308.87	20294
309.06	20335
309.25	20381
309.43	20346
309.62	20412
309.81	19757
310	20955
310.18	20381
310.37	19211
310.56	19698
310.75	20200
310.93	20051
311.12	19640
311.31	20309
311.5	20755
311.68	20670
311.87	20353
312.06	20355
312.25	20431
312.43	20531
312.62	21281
312.81	20874
313	20336
313.18	20727
313.37	19985
313.56	20524
313.75	20838
313.93	19626
314.12	20131
314.31	20978
314.5	21532
314.68	21047
314.87	21235
315.06	21083
315.25	20425
315.43	21074
315.62	21105
315.81	21440
316	21195
316.18	21362
316.37	21644
316.56	21010
316.75	21623
316.93	22114
317.12	21713
317.31	21445
317.5	21833
317.68	22315
317.87	21403
318.06	21968
318.25	22281
318.43	21958
318.62	21597
318.81	22486
319	22255
319.18	21921
319.37	22027
319.56	22186
319.75	22195
319.93	22474
320.12	22298
320.31	22358
320.5	23003
320.68	22911
320.87	23000
321.06	23313
321.25	22566
321.43	23267
321.62	22776
321.81	23141
322	23071
322.18	22762
322.37	23295
322.56	22233
322.75	23023
322.93	23414
323.12	22434
323.31	23319
323.5	23471
323.68	22962
323.87	24153
324.06	23327
324.25	21695
324.43	23198
324.62	22624
324.81	22892
325	23105
325.18	22953
325.37	22627
325.56	22809
325.75	23269
325.93	23139
326.12	23976
326.31	22342
326.5	22765
326.68	22786
326.87	22680
327.06	22228
327.25	22803
327.43	22873
327.62	21979
327.81	22388
328	22724
328.18	21776
328.37	21978
328.56	21660
328.75	21875
328.93	21737
329.12	22577
329.31	21990
329.5	21817
329.68	21919
329.87	21951
330.06	20972
330.25	21582
330.43	21075
330.62	21055
330.81	21609
331	21207
331.18	21689
331.37	21006
331.56	20849
331.75	21031
331.93	20904
332.12	21466
332.31	21315
332.5	20711
332.68	21261
332.87	21464
333.06	21301
333.25	20357
333.43	20711
333.62	21254
333.81	20546
334	21105
334.18	20563
334.37	20147
334.56	20953
334.75	21150
334.93	20877
335.12	20487
335.31	21066
335.5	20198
335.68	19898
335.87	20990
336.06	20658
336.25	20605
336.43	20758
336.62	20249
336.81	20980
337	20125
337.18	20353
337.37	20996
337.56	20576
337.75	20594
337.93	20152
338.12	20968
338.31	20342
338.5	20718
338.68	20785
338.87	20527
339.06	20254
339.25	20353
339.43	20516
339.62	20364
339.81	21032
340	20739
340.18	20689
340.37	20605
340.56	21131
340.75	20500
340.93	20396
341.12	21002
341.31	20984
341.5	20465
341.68	21432
341.87	20758
342.06	20458
342.25	21428
342.43	21297
342.62	21626
342.81	21219
343	21468
343.18	20929
343.37	21018
343.56	21437
343.75	21141
343.93	21152
344.12	21133
344.31	21423
344.5	21833
344.68	22298
344.87	21622
345.06	21936
345.25	22168
345.43	21828
345.62	21755
345.81	21918
346	22549
346.18	22114
346.37	22629
346.56	22868
346.75	22432
346.93	22280
347.12	22396
347.31	23018
347.5	22897
347.68	23028
347.87	22983
348.06	23075
348.25	23622
348.43	22874
348.62	23680
348.81	23658
349	23826
349.18	23887
349.37	24348
349.56	24297
349.75	24611
349.93	24112
350.12	24418
350.31	24804
350.5	25046
350.68	24682
350.87	25361
351.06	25603
351.25	25769
351.43	25406
351.62	25614
351.81	26306
352	25836
352.18	26787
352.37	26476
352.56	26691
352.75	26744
352.93	26678
353.12	27168
353.31	27338
353.5	27446
353.68	27452
353.87	27903
354.06	27887
354.25	27996
354.43	28653
354.62	28293
354.81	28435
355	28637
355.18	29424
355.37	28954
355.56	29272
355.75	29742
355.93	29553
356.12	29724
356.31	30021
356.5	29935
356.68	30035
356.87	29698
357.06	30704
357.25	30596
357.43	30827
357.62	30928
357.81	31004
358	31374
358.18	30932
358.37	31370
358.56	31423
358.75	31792
358.93	31687
359.12	32244
359.31	32367
359.5	32151
359.68	32815
359.87	32544
360.06	32952
360.25	33123
360.43	33153
360.62	33289
360.81	33555
361	33560
361.18	33471
361.37	34072
361.56	34236
361.75	33879
361.93	34535
362.12	34296
362.31	34704
362.5	34687
362.68	34940
362.87	35064
363.06	35017
363.25	35161
363.43	35123
363.62	35094
363.81	35512
364	35952
364.18	35957
364.37	35581
364.56	35852
364.75	36328
364.93	36788
365.12	36484
365.31	36611
365.5	37367
365.68	37346
365.87	37184
366.06	36890
366.25	37329
366.43	37449
366.62	37246
366.81	38265
367	38110
367.18	38111
367.37	38162
367.56	38226
367.75	38553
367.93	38521
368.12	38348
368.31	38907
368.5	39329
368.68	39010
368.87	39478
369.06	39915
369.25	39825
369.43	39701
369.62	40277
369.81	40132
370	40375
370.18	40456
370.37	40454
370.56	40975
370.75	40881
370.93	41494
371.12	41361
371.31	41538
371.5	41244
371.68	41406
371.87	41660
372.06	41828
372.25	41687
372.43	41803
372.62	41833
372.81	42096
373	41868
373.18	42260
373.37	42573
373.56	42562
373.75	42345
373.93	42679
374.12	42588
374.31	42258
374.5	42185
374.68	42277
374.87	42581
375.06	42601
375.25	42634
375.43	42963
375.62	43057
375.81	42888
376	43163
376.18	42894
376.37	42627
376.56	43303
376.75	43177
376.93	43395
377.12	42994
377.31	43299
377.5	43422
377.68	42882
377.87	43589
378.06	43603
378.25	43194
378.43	43513
378.62	43878
378.81	43349
379	43622
379.18	43350
379.37	43891
379.56	43408
379.75	43413
379.93	43222
380.12	43265
380.31	43866
380.5	43380
380.68	43628
380.87	43908
381.06	43702
381.25	43933
381.43	43769
381.62	43237
381.81	43549
382	43474
382.18	43910
382.37	43412
382.56	43755
382.75	43215
382.93	43743
383.12	43324
383.31	43399
383.5	43494
383.68	43507
383.87	43318
384.06	43274
384.25	43424
384.43	43707
384.62	42990
384.81	43203
385	43217
385.18	43481
385.37	43136
385.56	43164
385.75	43277
385.93	43184
386.12	43307
386.31	43064
386.5	43130
386.68	43308
386.87	43010
387.06	43213
387.25	43323
387.43	43480
387.62	42906
387.81	43191
388	43349
388.18	43418
388.37	42824
388.56	42964
388.75	43058
388.93	43358
389.12	43158
389.31	43332
389.5	43535
389.68	43818
389.87	43529
390.06	43714
390.25	43808
390.43	43942
390.62	44070
390.81	43902
391	44089
391.18	44681
391.37	44655
391.56	45089
391.75	45400
391.93	45157
392.12	45581
392.31	46215
392.5	46315
392.68	46134
392.87	46933
393.06	47097
393.25	47363
393.43	47844
393.62	47967
393.81	48602
394	49095
394.18	49604
394.37	49803
394.56	49724
394.75	50814
394.93	51085
395.12	52038
395.31	51893
395.5	52341
395.68	53108
395.87	53393
396.06	54082
396.25	54308
396.43	54927
396.62	55176
396.81	55802
397	56238
397.18	56823
397.37	56990
397.56	58066
397.75	58406
397.93	58388
398.12	58918
398.31	59217
398.5	59744
398.68	60399
398.87	61042
399.06	61238
399.25	61796
399.43	62266
399.62	62472
399.81	63035
400	63104
400.18	63352
400.37	63578
400.56	63857
400.75	64257
400.93	65114
401.12	65582
401.31	65393
401.5	65432
401.68	66079
401.87	66354
402.06	66376
402.25	66863
402.43	67077
402.62	67180
402.81	67858
403	67757
403.18	67565
403.37	68592
403.56	68469
403.75	68607
403.93	68874
404.12	68986
404.31	68906
404.5	69315
404.68	69420
404.87	69345
405.06	69676
405.25	69821
405.43	69754
405.62	70280
405.81	70440
406	70351
406.18	70815
406.37	70787
406.56	70660
406.75	70503
406.93	70837
407.12	70733
407.31	70613
407.5	70856
407.68	70833
407.87	71350
408.06	70898
408.25	71259
408.43	70967
408.62	70772
408.81	71083
409	71114
409.18	70714
409.37	70872
409.56	71321
409.75	71339
409.93	71054
410.12	71091
410.31	71199
410.5	71000
410.68	71017
410.87	71157
411.06	70920
411.25	70735
411.43	70792
411.62	70673
411.81	70819
412	70974
412.18	70306
412.37	70432
412.56	70144
412.75	70786
412.93	70777
413.12	70671
413.31	70312
413.5	70327
413.68	70901
413.87	70530
414.06	70533
414.25	70223
414.43	70803
414.62	70429
414.81	70739
415	71187
415.18	70982
415.37	71133
415.56	71812
415.75	71782
415.93	71928
416.12	72064
416.31	72203
416.5	72720
416.68	72929
416.87	73401
417.06	73259
417.25	74298
417.43	74390
417.62	74839
417.81	75384
418	76353
418.18	76578
418.37	77315
418.56	77820
418.75	78390
418.93	78279
419.12	80063
419.31	80650
419.5	80651
419.68	81834
419.87	82538
420.06	83453
420.25	84067
420.43	84806
420.62	85854
420.81	86809
421	86906
421.18	88233
421.37	89065
421.56	90143
421.75	91306
421.93	92206
422.12	93099
422.31	93543
422.5	94553
422.68	95695
422.87	96364
423.06	97786
423.25	98301
423.43	98874
423.62	100239
423.81	100940
424	101776
424.18	102493
424.37	103005
424.56	103880
424.75	104953
424.93	105309
425.12	106338
425.31	106528
425.5	107298
425.68	107924
425.87	108334
426.06	108536
426.25	109430
426.43	109451
426.62	109998
426.81	109981
427	110782
427.18	110623
427.37	111346
427.56	110979
427.75	111700
427.93	111226
428.12	111059
428.31	111274
428.5	111011
428.68	111328
428.87	110789
429.06	110035
429.25	110102
429.43	109429
429.62	109384
429.81	108475
430	108185
430.18	106938
430.37	105938
430.56	105580
430.75	104484
430.93	102772
431.12	102254
431.31	100890
431.5	99914
431.68	98296
431.87	97416
432.06	95303
432.25	94555
432.43	92113
432.62	90877
432.81	88149
433	86372
433.18	84761
433.37	82553
433.56	80377
433.75	78121
433.93	76213
434.12	74070
434.31	71277
434.5	69488
434.68	67373
434.87	65101
435.06	62854
435.25	60714
435.43	58666
435.62	56752
435.81	54725
436	52470
436.18	50868
436.37	48813
436.56	46977
436.75	45280
436.93	43246
437.12	41427
437.31	39762
437.5	38148
437.68	36683
437.87	35182
438.06	33560
438.25	32117
438.43	30871
438.62	29543
438.81	28678
439	27013
439.18	26033
439.37	24861
439.56	24051
439.75	22997
439.93	21981
440.12	20977
440.31	20430
440.5	19278
440.68	18712
440.87	17994
441.06	16991
441.25	16323
441.43	15931
441.62	15035
441.81	14710
442	14042
442.18	13433
442.37	12674
442.56	12458
442.75	11643
442.93	11264
443.12	10734
443.31	10436
443.5	10200
443.68	9445
443.87	9160
444.06	8811
444.25	8494
444.43	8181
444.62	7917
444.81	7544
445	7028
445.18	6918
445.37	6574
445.56	6561
445.75	6073
445.93	5706
446.12	5885
446.31	5426
446.5	5280
446.68	5017
446.87	5039
447.06	4876
447.25	4491
447.43	4359
447.62	4074
447.81	4113
448	4049
448.18	3897
448.37	3760
448.56	3816
448.75	3647
448.93	3575
449.12	3525
449.31	3195
449.5	3127
449.68	3085
449.87	3033
450.06	3213
450.25	2990
450.43	2787
450.62	2798
450.81	2596
451	2422
451.18	2476
451.37	2512
451.56	2292
451.75	2275
451.93	2421
452.12	2159
452.31	2292
452.5	2360
452.68	2212
452.87	2207
453.06	2132
453.25	2088
453.43	1981
453.62	1943
453.81	1774
454	1979
454.18	1910
454.37	1980
454.56	1943
454.75	1741
454.93	1765
455.12	1740
455.31	1868
455.5	1821
455.68	1556
455.87	1511
456.06	1565
456.25	1602
456.43	1541
456.62	1478
456.81	1576
457	1438
457.18	1529
457.37	1458
457.56	1461
457.75	1515
457.93	1502
458.12	1266
458.31	1491
458.5	1589
458.68	1339
458.87	1267
459.06	1270
459.25	1181
459.43	1336
459.62	1148
459.81	1233
460	1246
460.18	1241
460.37	1073
460.56	1410
460.75	1250
460.93	1308
461.12	946
461.31	1138
461.5	1196
461.68	1207
461.87	1143
462.06	1266
462.25	1202
462.43	1141
462.62	1142
462.81	1258
463	1048
463.18	1061
463.37	1076
463.56	1142
463.75	1087
463.93	1104
464.12	1073
464.31	1044
464.5	995
464.68	1081
464.87	1077
465.06	1101
465.25	1257
465.43	1059
465.62	1084
465.81	1102
466	1023
466.18	1036
466.37	1027
466.56	1139
466.75	849
466.93	998
467.12	1031
467.31	876
467.5	1015
467.68	921
467.87	973
468.06	835
468.25	1015
468.43	979
468.62	828
468.81	871
469	1001
469.18	1069
469.37	1059
469.56	1094
469.75	913
469.93	1051
470.12	907
470.31	933
470.5	827
470.68	979
470.87	1066
471.06	861
471.25	936
471.43	878
471.62	945
471.81	940
472	1055
472.18	802
472.37	1107
472.56	959
472.75	832
472.93	1149
473.12	1009
473.31	777
473.5	1027
473.68	895
473.87	1062
474.06	1076
474.25	939
474.43	793
474.62	1032
474.81	1092
475	990
475.18	941
475.37	885
475.56	1011
475.75	1084
475.93	1258
476.12	1163
476.31	940
476.5	853
476.68	1115
476.87	1070
477.06	1093
477.25	950
477.43	1139
477.62	1205
477.81	874
478	957
478.18	1062
478.37	1146
478.56	1168
478.75	1047
478.93	1365
479.12	1078
479.31	1122
479.5	991
479.68	999
479.87	1189
480.06	1320
480.25	1149
480.43	1180
480.62	1207
480.81	1219
481	1200
481.18	1219
481.37	1227
481.56	1247
481.75	1457
481.93	1211
482.12	1308
482.31	1440
482.5	1384
482.68	1171
482.87	1377
483.06	1363
483.25	1456
483.43	1514
483.62	1442
483.81	1554
484	1370
484.18	1261
484.37	1417
484.56	1366
484.75	1554
484.93	1449
485.12	1493
485.31	1431
485.5	1503
485.68	1558
485.87	1330
486.06	1665
486.25	1593
486.43	1622
486.62	1681
486.81	1596
487	1641
487.18	1587
487.37	1511
487.56	1514
487.75	1610
487.93	1720
488.12	1601
488.31	1680
488.5	1721
488.68	1630
488.87	1851
489.06	1811
489.25	1763
489.43	1656
489.62	1631
489.81	1652
490	1705
490.18	1635
490.37	1699
490.56	1713
490.75	1753
490.93	1814
491.12	1733
491.31	1789
491.5	1740
491.68	1807
491.87	1742
492.06	1870
492.25	1829
492.43	1835
492.62	1738
492.81	1703
493	1825
493.18	1781
493.37	1735
493.56	1722
493.75	1730
493.93	1652
494.12	1775
494.31	1887
494.5	1846
494.68	1717
494.87	1818
495.06	2002
495.25	1772
495.43	1775
495.62	1807
495.81	1948
496	1616
496.18	1790
496.37	1873
496.56	1785
496.75	1806
496.93	1804
497.12	1900
497.31	1745
497.5	1778
497.68	1909
497.87	1856
498.06	1925
498.25	1944
498.43	1779
498.62	1586
498.81	1688
499	1892
499.18	1695
499.37	1907
499.56	1977
499.75	1949
499.93	1716
500.12	1834
500.31	2008
500.5	1878
500.68	2046
500.87	1955
501.06	1875
501.25	1908
501.43	1901
501.62	1805
501.81	1872
502	1806
502.18	1740
502.37	1774
502.56	1876
502.75	1789
502.93	1947
503.12	2099
503.31	1733
503.5	1935
503.68	1956
503.87	1753
504.06	1740
504.25	1611
504.43	1879
504.62	1906
504.81	1790
505	1905
505.18	1941
505.37	1850
505.56	1898
505.75	1867
505.93	1894
506.12	1965
506.31	1898
506.5	1688
506.68	1808
506.87	1690
507.06	1836
507.25	1753
507.43	1883
507.62	1767
507.81	1916
508	1760
508.18	1782
508.37	1666
508.56	1764
508.75	1847
508.93	1939
509.12	1971
509.31	1775
509.5	1970
509.68	1794
509.87	1999
510.06	2009
510.25	1930
510.43	1894
510.62	2069
510.81	2015
511	1914
511.18	1928
511.37	1939
511.56	1876
511.75	1960
511.93	1953
512.12	1925
512.31	2114
512.5	1890
512.68	1966
512.87	2114
513.06	2136
513.25	2216
513.43	2179
513.62	2180
513.81	2084
514	2397
514.18	2274
514.37	2084
514.56	2147
514.75	2291
514.93	2147
515.12	2433
515.31	2315
515.5	2554
515.68	2220
515.87	2494
516.06	2534
516.25	2358
516.43	2545
516.62	2464
516.81	2582
517	2704
517.18	2621
517.37	2628
517.56	2760
517.75	2624
517.93	2816
518.12	2788
518.31	2816
518.5	2747
518.68	2824
518.87	2745
519.06	2776
519.25	2816
519.43	2931
519.62	3069
519.81	2826
520	3009
520.18	2950
520.37	3043
520.56	3058
520.75	2967
520.93	3028
521.12	3213
521.31	2947
521.5	3237
521.68	3223
521.87	3134
522.06	3228
522.25	3318
522.43	3344
522.62	3174
522.81	3234
523	3481
523.18	3463
523.37	3519
523.56	3544
523.75	3363
523.93	3403
524.12	3242
524.31	3307
524.5	3358
524.68	3520
524.87	3527
525.06	3617
525.25	3703
525.43	3686
525.62	3557
525.81	3648
526	3476
526.18	3528
526.37	3668
526.56	3565
526.75	3666
526.93	3562
527.12	3630
527.31	3592
527.5	3718
527.68	3724
527.87	3694
528.06	3672
528.25	3718
528.43	3634
528.62	3921
528.81	3734
529	3573
529.18	3740
529.37	3568
529.56	3868
529.75	3716
529.93	3781
530.12	3849
530.31	3775
530.5	3747
530.68	3933
530.87	3741
531.06	3832
531.25	3714
531.43	3929
531.62	3741
531.81	3767
532	3715
532.18	3574
532.37	3774
532.56	3851
532.75	3797
532.93	3614
533.12	3622
533.31	3709
533.5	3539
533.68	3808
533.87	3608
534.06	3677
534.25	3828
534.43	3669
534.62	3734
534.81	3670
535	3774
535.18	3524
535.37	3519
535.56	3581
535.75	3669
535.93	3570
536.12	3511
536.31	3455
536.5	3608
536.68	3445
536.87	3523
537.06	3438
537.25	3296
537.43	3380
537.62	3347
537.81	3632
538	3394
538.18	3423
538.37	3402
538.56	3334
538.75	3273
538.93	3510
539.12	3344
539.31	3333
539.5	3277
539.68	3280
539.87	3182
540.06	3203
540.25	3292
540.43	3127
540.62	3047
540.81	3108
541	3145
541.18	3101
541.37	3029
541.56	3102
541.75	2975
541.93	3033
542.12	3007
542.31	3085
542.5	3114
542.68	3003
542.87	3006
543.06	2808
543.25	2968
543.43	2876
543.62	2906
543.81	2950
544	3156
544.18	3134
544.37	2817
544.56	2772
544.75	2890
544.93	2677
545.12	2772
545.31	2667
545.5	2770
545.68	2781
545.87	2946
546.06	2692
546.25	2731
546.43	2678
546.62	2747
546.81	2717
547	2664
547.18	2602
547.37	2699
547.56	2812
547.75	2707
547.93	2782
548.12	2711
548.31	2805
548.5	2679
548.68	2646
548.87	2724
549.06	2680
549.25	2738
549.43	2881
549.62	2672
549.81	2790
550	2770
550.18	2599
550.37	2790
550.56	2847
550.75	2924
550.93	2794
551.12	2639
551.31	2752
551.5	3009
551.68	2918
551.87	2986
552.06	3016
552.25	2921
552.43	2939
552.62	3106
552.81	3022
553	3139
553.18	3018
553.37	3207
553.56	3047
553.75	3154
553.93	3142
554.12	3357
554.31	3246
554.5	3290
554.68	3392
554.87	3254
555.06	3523
555.25	3561
555.43	3514
555.62	3582
555.81	3532
556	3640
556.18	3541
556.37	3717
556.56	3617
556.75	3651
556.93	3899
557.12	3889
557.31	3810
557.5	3830
557.68	3857
557.87	3936
558.06	3995
558.25	4044
558.43	4085
558.62	4296
558.81	4172
559	4228
559.18	4344
559.37	4403
559.56	4154
559.75	4254
559.93	4427
560.12	4488
560.31	4548
560.5	4596
560.68	4835
560.87	4696
561.06	4750
561.25	4819
561.43	4825
561.62	4786
561.81	5049
562	5177
562.18	5094
562.37	5049
562.56	5169
562.75	5284
562.93	5400
563.12	5386
563.31	5296
563.5	5527
563.68	5440
563.87	5466
564.06	5476
564.25	5701
564.43	5708
564.62	5631
564.81	5972
565	5665
565.18	5873
565.37	5903
565.56	5935
565.75	5893
565.93	5981
566.12	6163
566.31	6156
566.5	6158
566.68	6207
566.87	6123
567.06	6195
567.25	6232
567.43	6317
567.62	6525
567.81	6401
568	6388
568.18	6237
568.37	6617
568.56	6416
568.75	6562
568.93	6529
569.12	6463
569.31	6835
569.5	6757
569.68	6627
569.87	6746
570.06	6698
570.25	6807
570.43	6754
570.62	6795
570.81	6878
571	6906
571.18	6956
571.37	7042
571.56	6829
571.75	7096
571.93	7172
572.12	7185
572.31	6954
572.5	7128
572.68	6955
572.87	7109
573.06	7134
573.25	7042
573.43	7442
573.62	7173
573.81	7260
574	7054
574.18	7237
574.37	7359
574.56	6965
574.75	7334
574.93	7306
575.12	7089
575.31	7221
575.5	7194
575.68	7103
575.87	7430
576.06	6973
576.25	7169
576.43	7300
576.62	7269
576.81	7302
577	7161
577.18	7350
577.37	7224
577.56	7107
577.75	7205
577.93	7173
578.12	6991
578.31	7050
578.5	6901
578.68	6800
578.87	7020
579.06	6905
579.25	6866
579.43	6784
579.62	6926
579.81	6846
580	6629
580.18	6530
580.37	6365
580.56	6608
580.75	6472
580.93	6492
581.12	6431
581.31	6329
581.5	6312
581.68	6184
581.87	6113
582.06	6290
582.25	6165
582.43	6024
582.62	6026
582.81	5821
583	5880
583.18	5970
583.37	5739
583.56	5849
583.75	5858
583.93	5757
584.12	5527
584.31	5545
584.5	5639
584.68	5616
584.87	5355
585.06	5527
585.25	5414
585.43	5320
585.62	5341
585.81	5271
586	5358
586.18	5140
586.37	5313
586.56	4930
586.75	5247
586.93	5171
587.12	5158
587.31	4957
587.5	5072
587.68	5016
587.87	5178
588.06	5046
588.25	4888
588.43	4967
588.62	4964
588.81	5005
589	5050
589.18	5126
589.37	5089
589.56	4965
589.75	5040
589.93	5156
590.12	4887
590.31	5007
590.5	5122
590.68	5086
590.87	5241
591.06	5122
591.25	5153
591.43	5160
591.62	5361
591.81	5166
592	5286
592.18	5440
592.37	5401
592.56	5515
592.75	5531
592.93	5854
593.12	5952
593.31	5807
593.5	6002
593.68	5986
593.87	6022
594.06	6265
594.25	6319
594.43	6288
594.62	6456
594.81	6467
595	6644
595.18	6594
595.37	6861
595.56	6949
595.75	6998
595.93	6975
596.12	7033
596.31	7443
596.5	7344
596.68	7600
596.87	7665
597.06	7643
597.25	7598
597.43	7921
597.62	7910
597.81	8063
598	7947
598.18	8242
598.37	8384
598.56	8554
598.75	8506
598.93	8618
599.12	8777
599.31	8646
599.5	8905
599.68	9102
599.87	9111
600.06	9179
600.25	9226
600.43	9290
600.62	9622
600.81	9487
601	9571
601.18	9691
601.37	9875
601.56	10042
601.75	10035
601.93	10046
602.12	10120
602.31	10522
602.5	10506
602.68	10341
602.87	10641
603.06	10660
603.25	10751
603.43	10720
603.62	10959
603.81	11140
604	11069
604.18	11170
604.37	11200
604.56	11492
604.75	11476
604.93	11355
605.12	11652
605.31	11557
605.5	11531
605.68	11837
605.87	11945
606.06	11773
606.25	12027
606.43	12234
606.62	12262
606.81	12454
607	12214
607.18	12357
607.37	12318
607.56	12364
607.75	12256
607.93	12515
608.12	12764
608.31	12825
608.5	12713
608.68	12632
608.87	12823
609.06	12777
609.25	12857
609.43	12824
609.62	12936
609.81	12953
610	12803
610.18	13078
610.37	12978
610.56	13193
610.75	13202
610.93	13152
611.12	13172
611.31	13227
611.5	13119
611.68	13127
611.87	13184
612.06	13079
612.25	13095
612.43	13307
612.62	13255
612.81	13401
613	13177
613.18	13188
613.37	13223
613.56	13378
613.75	13441
613.93	13300
614.12	13526
614.31	13412
614.5	13374
614.68	13230
614.87	13322
615.06	13149
615.25	13278
615.43	13148
615.62	13145
615.81	13108
616	13146
616.18	13014
616.37	13207
616.56	12935
616.75	13032
616.93	13108
617.12	13383
617.31	12950
617.5	13018
617.68	12750
617.87	12886
618.06	12769
618.25	12631
618.43	12559
618.62	12535
618.81	12874
619	12536
619.18	12670
619.37	12440
619.56	12274
619.75	12317
619.93	12277
620.12	12204
620.31	12190
620.5	12150
620.68	12245
620.87	12236
621.06	12016
621.25	11877
621.43	11832
621.62	11540
621.81	11438
622	11597
622.18	11395
622.37	11463
622.56	11120
622.75	11202
622.93	11118
623.12	11167
623.31	10784
623.5	10771
623.68	10574
623.87	10676
624.06	10585
624.25	10514
624.43	10484
624.62	10247
624.81	10088
625	9941
625.18	9981
625.37	10076
625.56	9921
625.75	9749
625.93	9859
626.12	9732
626.31	9476
626.5	9388
626.68	9261
626.87	9412
627.06	9390
627.25	9201
627.43	9108
627.62	9110
627.81	9218
628	9131
628.18	8936
628.37	8820
628.56	9012
628.75	8788
628.93	8769
629.12	8517
629.31	8578
629.5	8918
629.68	8801
629.87	8702
630.06	8495
630.25	8687
630.43	8552
630.62	8619
630.81	8296
631	8571
631.18	8439
631.37	8389
631.56	8394
631.75	8271
631.93	8200
632.12	8332
632.31	8311
632.5	8418
632.68	8300
632.87	8268
633.06	8279
633.25	8236
633.43	8367
633.62	8638
633.81	8389
634	8555
634.18	8535
634.37	8659
634.56	8305
634.75	8638
634.93	8691
635.12	8743
635.31	8832
635.5	8974
635.68	8747
635.87	8981
636.06	8962
636.25	8950
636.43	9067
636.62	9257
636.81	9069
637	9364
637.18	9541
637.37	9670
637.56	9891
637.75	9886
637.93	9960
638.12	10410
638.31	10459
638.5	10355
638.68	10617
638.87	10758
639.06	10991
639.25	11280
639.43	11282
639.62	11568
639.81	11687
640	12118
640.18	12222
640.37	12387
640.56	12176
640.75	12735
640.93	12827
641.12	13169
641.31	13325
641.5	13741
641.68	13980
641.87	14396
642.06	14787
642.25	14696
642.43	15068
642.62	15331
642.81	16006
643	15995
643.18	16348
643.37	16630
643.56	17154
643.75	17339
643.93	17870
644.12	18849
644.31	18755
644.5	19243
644.68	19494
644.87	19982
645.06	20618
645.25	20946
645.43	21771
645.62	22135
645.81	22951
646	23306
646.18	23802
646.37	24619
646.56	25296
646.75	25808
646.93	26422
647.12	27232
647.31	27792
647.5	28708
647.68	29399
647.87	30141
648.06	30856
648.25	31318
648.43	32533
648.62	32677
648.81	33219
649	33867
649.18	34314
649.37	34984
649.56	35756
649.75	36618
649.93	37370
650.12	38021
650.31	38756
650.5	39440
650.68	41173
650.87	41843
651.06	42694
651.25	43944
651.43	44818
651.62	46117
651.81	47103
652	48477
652.18	49699
652.37	50408
652.56	51778
652.75	52424
652.93	53639
653.12	54985
653.31	56283
653.5	57491
653.68	58757
653.87	59988
654.06	60936
654.25	62106
654.43	63504
654.62	64425
654.81	65686
655	66795
655.18	67991
655.37	68822
655.56	70539
655.75	71146
655.93	72128
656.12	73691
656.31	73819
656.5	74750
656.68	75948
656.87	77537
657.06	77767
657.25	78408
657.43	79271
657.62	80374
657.81	80912
658	81497
658.18	82163
658.37	82528
658.56	83009
658.75	83540
658.93	83855
659.12	84007
659.31	84182
659.5	84773
659.68	84365
659.87	84627
660.06	85265
660.25	84898
660.43	84829
660.62	84886
660.81	84388
661	83927
661.18	84025
661.37	83553
661.56	82931
661.75	82337
661.93	81655
662.12	81703
662.31	80748
662.5	79919
662.68	79260
662.87	78276
663.06	77375
663.25	76369
663.43	75366
663.62	74160
663.81	73019
664	72171
664.18	71080
664.37	69381
664.56	68542
664.75	67211
664.93	66093
665.12	64941
665.31	63331
665.5	61651
665.68	60915
665.87	59435
666.06	57883
666.25	56883
666.43	55588
666.62	54056
666.81	52394
667	51466
667.18	50072
667.37	48451
667.56	47109
667.75	45934
667.93	44368
668.12	43288
668.31	42319
668.5	40917
668.68	39771
668.87	38449
669.06	37374
669.25	36203
669.43	34660
669.62	33937
669.81	32909
670	31441
670.18	30674
670.37	29558
670.56	28670
670.75	27559
670.93	26258
671.12	25371
671.31	24304
671.5	23549
671.68	22653
671.87	21572
672.06	20773
672.25	19866
672.43	19271
672.62	18328
672.81	17664
673	16648
673.18	15982
673.37	14925
673.56	14132
673.75	13547
673.93	12681
674.12	12120
674.31	11305
674.5	11014
674.68	10601
674.87	9956
675.06	9501
675.25	9470
675.43	8534
675.62	8387
675.81	8275
676	7492
676.18	7224
676.37	6794
676.56	6812
676.75	6597
676.93	6105
677.12	5889
677.31	5622
677.5	5486
677.68	5281
677.87	5072
678.06	5029
678.25	4508
678.43	4373
678.62	4416
678.81	4396
679	3862
679.18	3896
679.37	3824
679.56	3553
679.75	3607
679.93	3448
680.12	3359
680.31	3214
680.5	3192
680.68	2992
680.87	2921
681.06	2686
681.25	2945
681.43	2810
681.62	2429
681.81	2463
682	2411
682.18	2341
682.37	2641
682.56	2210
682.75	2228
682.93	2035
683.12	1958
683.31	1997
683.5	1942
683.68	1742
683.87	1971
684.06	1652
684.25	1671
684.43	1813
684.62	1760
684.81	1579
685	1541
685.18	1361
685.37	1502
685.56	1592
685.75	1442
685.93	1493
686.12	1258
686.31	1689
686.5	1384
686.68	1283
686.87	1531
687.06	1327
687.25	1254
687.43	1196
687.62	1037
687.81	1066
688	1114
688.18	1093
688.37	1229
688.56	1142
688.75	1176
688.93	925
689.12	997
689.31	1001
689.5	899
689.68	1060
689.87	928
690.06	863
690.25	831
690.43	1122
690.62	961
690.81	1036
691	1002
691.18	793
691.37	882
691.56	1012
691.75	873
691.93	885
692.12	670
692.31	1036
692.5	992
692.68	781
692.87	770
693.06	936
693.25	694
693.43	690
693.62	746
693.81	880
694	853
694.18	730
694.37	357
694.56	948
694.75	733
694.93	408
695.12	795
695.31	411
695.5	839
695.68	585
695.87	580
696.06	637
696.25	807
696.43	608
696.62	635
696.81	719
697	704
697.18	538
697.37	409
697.56	573
697.75	514
697.93	629
698.12	402
698.31	518
698.5	525
698.68	389
698.87	405
699.06	448
699.25	444
699.43	725
699.62	269
699.81	408
700	449
